Folder: PyPBEC_Semiconductor/PyPBEC/data

File: qw_absorption.csv
wavelength (nm),absorption per pass (percentage)
900,43.0514
900.312,41.7224
900.624,39.5412
900.937,36.7087
901.25,33.4292
901.563,29.8804
901.876,26.1987
902.189,22.4919
902.503,18.8721
902.817,15.4725
903.131,12.4242
903.445,9.82345
903.76,7.71152
904.075,6.06794
904.39,4.8236
904.705,3.8945
905.021,3.20395
905.337,2.68572
905.653,2.2883
905.969,1.97934
906.286,1.73828
906.603,1.54797
906.92,1.39741
907.237,1.27909
907.555,1.18215
907.873,1.09905
908.191,1.02976
908.509,0.972462
908.827,0.921245
909.146,0.875375
909.465,0.838294
909.784,0.808472
910.103,0.782879
910.423,0.761759
910.743,0.743409
911.063,0.724681
911.383,0.707434
911.703,0.69407
912.024,0.682006
912.345,0.670306
912.666,0.661905
912.987,0.656457
913.309,0.651409
913.631,0.648339
913.953,0.647734
914.275,0.644947
914.598,0.639006
914.92,0.633211
915.243,0.627157
915.567,0.619209
915.89,0.6121
916.214,0.608123
916.537,0.605421
916.862,0.603567
917.186,0.6030038
917.51,0.601514
917.835,0.59938
918.16,0.59991
918.485,0.601578
918.811,0.599913
919.137,0.596801
919.463,0.596015
919.789,0.595894
920.115,0.595722
920.442,0.59899
920.769,0.605895
921.096,0.612624
921.423,0.618666
921.751,0.624209
922.078,0.626559
922.407,0.626716
922.735,0.629556
923.063,0.636136
923.392,0.64414
923.721,0.65404
924.05,0.665817
924.38,0.676988
924.709,0.690706
925.039,0.713485
925.369,0.745929
925.7,0.786542
926.03,0.838223
926.361,0.902827
926.692,0.979338
927.024,1.07053
927.355,1.17899
927.687,1.29951
928.019,1.42418
928.351,1.54555
928.684,1.64846
929.017,1.71271
929.35,1.72664
929.683,1.68681
930.016,1.59264
930.35,1.45275
930.684,1.28765
931.018,1.11611
931.352,0.949688
931.687,0.800517
932.022,0.675486
932.357,0.571846
932.692,0.485463
933.028,0.414046
933.364,0.353182
933.7,0.294925
934.036,0.238367
934.373,0.194571
934.71,0.170901
935.047,0.160633
935.384,0.15122
935.722,0.139046
936.06,0.13118
936.398,0.12674
936.736,0.114676
937.074,0.09590508
937.413,0.0831368
937.752,0.0802992
938.092,0.0798856
938.431,0.0794297
938.771,0.0848429
939.111,0.0940697
939.451,0.098242
939.792,0.0974339
940.132,0.0965443
940.473,0.09457106
940.815,0.0902074
941.156,0.087081
941.498,0.0862859
941.84,0.0836437
942.182,0.0745921
942.525,0.0598444
942.867,0.0484262
943.21,0.0481646
943.554,0.0522009
943.897,0.0477258
944.241,0.0401515
944.585,0.0466689
944.929,0.06366794
945.274,0.0702292
945.618,0.0623248
945.963,0.0554779
946.309,0.0583211
946.654,0.0666406
947,0.075102
947.346,0.0781851
947.692,0.0713734
948.039,0.0611237
948.385,0.0593792
948.732,0.064704
949.08,0.064728
949.427,0.0549153
949.775,0.0430735
950.123,0.0399207
950.471,0.049906
950.82,0.066043
951.169,0.0737151
951.518,0.0669452
951.867,0.05539099
952.217,0.0494873
952.566,0.0514258
952.916,0.0591811
953.267,0.0669993
953.617,0.067694
953.968,0.061529
954.319,0.0562693
954.671,0.0553266
955.022,0.0557653
955.374,0.0568541
955.726,0.0584196
956.079,0.057436
956.432,0.0546503
956.784,0.0547683
957.138,0.0577562
957.491,0.0588763
957.845,0.05692292
958.199,0.0536593
958.553,0.0490535
958.908,0.0450139
959.262,0.0447468
959.617,0.0462268
959.973,0.0459977
960.328,0.0452937
960.684,0.0457965
961.04,0.0460967
961.396,0.0459164
961.753,0.0452625
962.11,0.0421522
962.467,0.0386337
962.824,0.0392215
963.182,0.0408457
963.54,0.0376123
963.898,0.0316353
964.257,0.0277603
964.615,0.0251444
964.974,0.0227235
965.334,0.0222202
965.693,0.021439
966.053,0.0171808
966.413,0.0126571
966.773,0.0110314
967.134,0.010305
967.495,0.009866918
967.856,0.0109529
968.217,0.0107337
968.579,0.006813788
968.941,0.002734053
969.303,0.00034094
969.666,-0.00329746
970.029,-0.007701433
970.392,-0.010003